# Molecule             : resname SOD
# Total Charge         : 1.0e
# Droplet Radius       : 24.0 Ang
# Dielectric Const     : 80.0
#
# Born Equation        : -6.8162 kcal/mol
# Generalized Equation : -6.8185 +- 0.0020 kcal/mol
#
#    Frame     Energy   Diagonal      Cross
#    -----     ------   --------      -----
         1    -6.8214    -6.8214    -0.0000
         2    -6.8200    -6.8200    -0.0000
         3    -6.8170    -6.8170    -0.0000
         4    -6.8235    -6.8235    -0.0000
         5    -6.8212    -6.8212    -0.0000
         6    -6.8181    -6.8181    -0.0000
         7    -6.8254    -6.8254    -0.0000
         8    -6.8187    -6.8187    -0.0000
         9    -6.8182    -6.8182    -0.0000
        10    -6.8195    -6.8195    -0.0000
        11    -6.8168    -6.8168    -0.0000
        12    -6.8180    -6.8180    -0.0000
        13    -6.8169    -6.8169    -0.0000
        14    -6.8167    -6.8167    -0.0000
        15    -6.8171    -6.8171    -0.0000
        16    -6.8180    -6.8180    -0.0000
        17    -6.8243    -6.8243    -0.0000
        18    -6.8169    -6.8169    -0.0000
        19    -6.8179    -6.8179    -0.0000
        20    -6.8238    -6.8238    -0.0000
        21    -6.8176    -6.8176    -0.0000
        22    -6.8172    -6.8172    -0.0000
        23    -6.8180    -6.8180    -0.0000
        24    -6.8199    -6.8199    -0.0000
        25    -6.8170    -6.8170    -0.0000
        26    -6.8185    -6.8185    -0.0000
        27    -6.8183    -6.8183    -0.0000
        28    -6.8180    -6.8180    -0.0000
        29    -6.8173    -6.8173    -0.0000
        30    -6.8169    -6.8169    -0.0000
        31    -6.8197    -6.8197    -0.0000
        32    -6.8172    -6.8172    -0.0000
        33    -6.8172    -6.8172    -0.0000
        34    -6.8163    -6.8163    -0.0000
        35    -6.8167    -6.8167    -0.0000
        36    -6.8177    -6.8177    -0.0000
        37    -6.8217    -6.8217    -0.0000
        38    -6.8170    -6.8170    -0.0000
        39    -6.8188    -6.8188    -0.0000
        40    -6.8206    -6.8206    -0.0000
        41    -6.8174    -6.8174    -0.0000
        42    -6.8173    -6.8173    -0.0000
        43    -6.8180    -6.8180    -0.0000
        44    -6.8199    -6.8199    -0.0000
        45    -6.8173    -6.8173    -0.0000
        46    -6.8168    -6.8168    -0.0000
        47    -6.8178    -6.8178    -0.0000
        48    -6.8173    -6.8173    -0.0000
        49    -6.8186    -6.8186    -0.0000
        50    -6.8183    -6.8183    -0.0000
        51    -6.8174    -6.8174    -0.0000
        52    -6.8232    -6.8232    -0.0000
        53    -6.8170    -6.8170    -0.0000
        54    -6.8192    -6.8192    -0.0000
        55    -6.8176    -6.8176    -0.0000
        56    -6.8219    -6.8219    -0.0000
        57    -6.8197    -6.8197    -0.0000
        58    -6.8191    -6.8191    -0.0000
        59    -6.8186    -6.8186    -0.0000
        60    -6.8178    -6.8178    -0.0000
        61    -6.8166    -6.8166    -0.0000
        62    -6.8200    -6.8200    -0.0000
        63    -6.8184    -6.8184    -0.0000
        64    -6.8179    -6.8179    -0.0000
        65    -6.8252    -6.8252    -0.0000
        66    -6.8180    -6.8180    -0.0000
        67    -6.8185    -6.8185    -0.0000
        68    -6.8172    -6.8172    -0.0000
        69    -6.8166    -6.8166    -0.0000
        70    -6.8169    -6.8169    -0.0000
        71    -6.8182    -6.8182    -0.0000
        72    -6.8196    -6.8196    -0.0000
        73    -6.8171    -6.8171    -0.0000
        74    -6.8165    -6.8165    -0.0000
        75    -6.8184    -6.8184    -0.0000
        76    -6.8168    -6.8168    -0.0000
        77    -6.8185    -6.8185    -0.0000
        78    -6.8187    -6.8187    -0.0000
        79    -6.8212    -6.8212    -0.0000
        80    -6.8198    -6.8198    -0.0000
        81    -6.8173    -6.8173    -0.0000
        82    -6.8193    -6.8193    -0.0000
        83    -6.8174    -6.8174    -0.0000
        84    -6.8192    -6.8192    -0.0000
        85    -6.8181    -6.8181    -0.0000
        86    -6.8182    -6.8182    -0.0000
        87    -6.8202    -6.8202    -0.0000
        88    -6.8166    -6.8166    -0.0000
        89    -6.8175    -6.8175    -0.0000
        90    -6.8163    -6.8163    -0.0000
        91    -6.8212    -6.8212    -0.0000
        92    -6.8164    -6.8164    -0.0000
        93    -6.8172    -6.8172    -0.0000
        94    -6.8199    -6.8199    -0.0000
        95    -6.8166    -6.8166    -0.0000
        96    -6.8182    -6.8182    -0.0000
        97    -6.8188    -6.8188    -0.0000
        98    -6.8197    -6.8197    -0.0000
        99    -6.8181    -6.8181    -0.0000
       100    -6.8167    -6.8167    -0.0000
